File: data/compressive_strength.csv
Mix Name,Description,Mortar or Concrete,Material Source,Binder (kg/m3),Cement (kg/m3),Fly Ash (kg/m3),Slag (kg/m3),Clay0 (kg/m3),Clay1 (kg/m3),Clay2 (kg/m3),w/b,Water (kg/m3),MRWR (kg/m3),HRWR (kg/m3),HRWR (oz/cwt binder),VMA (oz/cwt),AE (oz/cwt),Fine Aggregate (kg/m3),Coarse Aggregates (kg/m3),Temp (C),Time,GWP,Strength1 (psi),Strength2 (psi),Strength3 (psi),Strength (Mean),Strength (Std),# of measurements,Cement replacement (ratio),Slump (in),Cost Factor
Mix 0,1_0_,Mortar,0,666.67,353.33,46.67,266.67,0,0,0,0.21,140,0,6.67,16,0,0,1833,0,22,1,321.57,5098,4960,4943,5000,85,3,0.47,0,576
Mix 0,1_0_,Mortar,0,666.67,353.33,46.67,266.67,0,0,0,0.21,140,0,6.67,16,0,0,1833,0,22,3,321.57,7018,7293,7395,7235,195,3,0.47,0,576
Mix 0,1_0_,Mortar,0,666.67,353.33,46.67,266.67,0,0,0,0.21,140,0,6.67,16,0,0,1833,0,22,5,321.57,7498,7438,7018,7318,262,3,0.47,0,576
Mix 0,1_0_,Mortar,0,666.67,353.33,46.67,266.67,0,0,0,0.21,140,0,6.67,16,0,0,1833,0,22,28,321.57,9153,10348,11370,10290,1110,3,0.47,0,576
Mix 1,1_1_,Mortar,0,666.67,214.67,220,232,0,0,0,0.24,159,0,4,10,0,0,1833,0,22,1,209.2,3295,3475,3550,3440,131,3,0.68,0,444.27
Mix 1,1_1_,Mortar,0,666.67,214.67,220,232,0,0,0,0.24,159,0,4,10,0,0,1833,0,22,3,209.2,5550,4810,4300,4887,629,3,0.68,0,444.27
Mix 1,1_1_,Mortar,0,666.67,214.67,220,232,0,0,0,0.24,159,0,4,10,0,0,1833,0,22,5,209.2,4885,5430,4375,4897,528,3,0.68,0,444.27
Mix 1,1_1_,Mortar,0,666.67,214.67,220,232,0,0,0,0.24,159,0,4,10,0,0,1833,0,22,28,209.2,5708,7193,5765,6222,841,3,0.68,0,444.27
Mix 2,1_2_,Mortar,0,666.67,344,178.67,144,0,0,0,0.45,299,0,0,0,0,0,1833,0,22,1,284.69,1380,1478,1660,1506,142,3,0.48,0,494.93
Mix 2,1_2_,Mortar,0,666.67,344,178.67,144,0,0,0,0.45,299,0,0,0,0,0,1833,0,22,3,284.69,2993,2883,2878,2918,65,3,0.48,0,494.93
Mix 2,1_2_,Mortar,0,666.67,344,178.67,144,0,0,0,0.45,299,0,0,0,0,0,1833,0,22,5,284.69,3355,3698,3858,3637,257,3,0.48,0,494.93
Mix 2,1_2_,Mortar,0,666.67,344,178.67,144,0,0,0,0.45,299,0,0,0,0,0,1833,0,22,28,284.69,6713,6593,5523,6276,655,3,0.48,0,494.93
Mix 3,1_3_,Mortar,0,666.67,212,214.67,240,0,0,0,0.26,175,0,0,0,0,0,1833,0,22,1,194.01,2883,3278,3183,3114,206,3,0.68,0,446.93
Mix 3,1_3_,Mortar,0,666.67,212,214.67,240,0,0,0,0.26,175,0,0,0,0,0,1833,0,22,3,194.01,4098,4013,4730,4280,392,3,0.68,0,446.93
Mix 3,1_3_,Mortar,0,666.67,212,214.67,240,0,0,0,0.26,175,0,0,0,0,0,1833,0,22,5,194.01,4275,4013,4635,4308,313,3,0.68,0,446.93
Mix 3,1_3_,Mortar,0,666.67,212,214.67,240,0,0,0,0.26,175,0,0,0,0,0,1833,0,22,28,194.01,3950,4480,4870,4433,462,3,0.68,0,446.93
Mix 4,1_4_,Mortar,0,666.67,317.33,221.33,128,0,0,0,0.35,233,0,0,0,0,0,1833,0,22,1,263.93,3235,2885,2595,2905,320,3,0.52,0,464
Mix 4,1_4_,Mortar,0,666.67,317.33,221.33,128,0,0,0,0.35,233,0,0,0,0,0,1833,0,22,3,263.93,4238,4720,3983,4313,375,3,0.52,0,464
Mix 4,1_4_,Mortar,0,666.67,317.33,221.33,128,0,0,0,0.35,233,0,0,0,0,0,1833,0,22,5,263.93,4448,4485,4353,4428,68,3,0.52,0,464
Mix 4,1_4_,Mortar,0,666.67,317.33,221.33,128,0,0,0,0.35,233,0,0,0,0,0,1833,0,22,28,263.93,5935,8520,7273,7243,1293,3,0.52,0,464
Mix 5,1_5_,Mortar,0,666.67,454.67,158.67,53.33,0,0,0,0.23,155,0,4,10,0,0,1833,0,22,1,375.06,6978,6285,5575,6279,701,3,0.32,0,529.07
Mix 5,1_5_,Mortar,0,666.67,454.67,158.67,53.33,0,0,0,0.23,155,0,4,10,0,0,1833,0,22,3,375.06,7558,7605,6743,7302,485,3,0.32,0,529.07
Mix 5,1_5_,Mortar,0,666.67,454.67,158.67,53.33,0,0,0,0.23,155,0,4,10,0,0,1833,0,22,5,375.06,6613,7195,8298,7368,856,3,0.32,0,529.07
Mix 5,1_5_,Mortar,0,666.67,454.67,158.67,53.33,0,0,0,0.23,155,0,4,10,0,0,1833,0,22,28,375.06,8515,8603,9970,9029,816,3,0.32,0,529.07
Mix 6,1_6_,Mortar,0,666.67,436,33.33,197.33,0,0,0,0.38,256,0,0,0,0,0,1833,0,22,1,355.1,3225,3570,3438,3411,174,3,0.35,0,600.53
Mix 6,1_6_,Mortar,0,666.67,436,33.33,197.33,0,0,0,0.38,256,0,0,0,0,0,1833,0,22,3,355.1,5143,5250,4630,5008,331,3,0.35,0,600.53
Mix 6,1_6_,Mortar,0,666.67,436,33.33,197.33,0,0,0,0.38,256,0,0,0,0,0,1833,0,22,5,355.1,5525,5185,5213,5308,189,3,0.35,0,600.53
Mix 6,1_6_,Mortar,0,666.67,436,33.33,197.33,0,0,0,0.38,256,0,0,0,0,0,1833,0,22,28,355.1,6178,6813,6950,6647,412,3,0.35,0,600.53
Mix 7,1_7_,Mortar,0,666.67,318.67,52,296,0,0,0,0.48,317,0,0,0,0,0,1833,0,22,1,274.84,1608,1725,1645,1659,60,3,0.52,0,565.87
Mix 7,1_7_,Mortar,0,666.67,318.67,52,296,0,0,0,0.48,317,0,0,0,0,0,1833,0,22,3,274.84,2985,2683,3013,2893,183,3,0.52,0,565.87
Mix 7,1_7_,Mortar,0,666.67,318.67,52,296,0,0,0,0.48,317,0,0,0,0,0,1833,0,22,5,274.84,3555,3638,3978,3723,224,3,0.52,0,565.87
Mix 7,1_7_,Mortar,0,666.67,318.67,52,296,0,0,0,0.48,317,0,0,0,0,0,1833,0,22,28,274.84,6170,5340,5848,5786,418,3,0.52,0,565.87
Mix 8,1_8_,Mortar,0,666.67,265.33,164,237.33,0,0,0,0.28,185,0,1.33,3,0,0,1833,0,22,1,237.52,3708,3393,3495,3532,161,3,0.6,0,488
Mix 8,1_8_,Mortar,0,666.67,265.33,164,237.33,0,0,0,0.28,185,0,1.33,3,0,0,1833,0,22,3,237.52,5048,5460,5060,5189,235,3,0.6,0,488
Mix 8,1_8_,Mortar,0,666.67,265.33,164,237.33,0,0,0,0.28,185,0,1.33,3,0,0,1833,0,22,5,237.52,5503,5463,5738,5568,149,3,0.6,0,488
Mix 8,1_8_,Mortar,0,666.67,265.33,164,237.33,0,0,0,0.28,185,0,1.33,3,0,0,1833,0,22,28,237.52,8333,8598,9125,8685,403,3,0.6,0,488
Mix 9,2_0_,Mortar,0,666.67,529.6,0,137.07,0,0,0,0.41,276,0,0,0,0,0,1833,0,22,1,420.58,2995,3173,3653,3273,340,3,0.21,0,639.25
Mix 9,2_0_,Mortar,0,666.67,529.6,0,137.07,0,0,0,0.41,276,0,0,0,0,0,1833,0,22,3,420.58,4273,4355,4673,4433,211,3,0.21,0,639.25
Mix 9,2_0_,Mortar,0,666.67,529.6,0,137.07,0,0,0,0.41,276,0,0,0,0,0,1833,0,22,5,420.58,4870,3900,5355,4708,741,3,0.21,0,639.25
Mix 9,2_0_,Mortar,0,666.67,529.6,0,137.07,0,0,0,0.41,276,0,0,0,0,0,1833,0,22,28,420.58,6993,6993,6038,6674,551,3,0.21,0,639.25
Mix 10,2_1_,Mortar,0,666.67,503.07,163.6,0,0,0,0,0.36,237,0,0,0,0,0,1833,0,22,1,393.12,4123,4270,3925,4106,173,3,0.25,0,535.79
Mix 10,2_1_,Mortar,0,666.67,503.07,163.6,0,0,0,0,0.36,237,0,0,0,0,0,1833,0,22,3,393.12,5088,5183,4975,5082,104,3,0.25,0,535.79
Mix 10,2_1_,Mortar,0,666.67,503.07,163.6,0,0,0,0,0.36,237,0,0,0,0,0,1833,0,22,5,393.12,4720,5950,6328,5666,841,3,0.25,0,535.79
Mix 10,2_1_,Mortar,0,666.67,503.07,163.6,0,0,0,0,0.36,237,0,0,0,0,0,1833,0,22,28,393.12,6465,8438,7140,7348,1002,3,0.25,0,535.79
Mix 11,2_2_,Mortar,0,666.67,495.2,0,171.47,0,0,0,0.45,297,0,0,0,0,0,1833,0,22,1,396.8,3025,3180,2975,3060,107,3,0.26,0,632.37
Mix 11,2_2_,Mortar,0,666.67,495.2,0,171.47,0,0,0,0.45,297,0,0,0,0,0,1833,0,22,3,396.8,4025,4193,4193,4137,97,3,0.26,0,632.37
Mix 11,2_2_,Mortar,0,666.67,495.2,0,171.47,0,0,0,0.45,297,0,0,0,0,0,1833,0,22,5,396.8,4920,4313,4785,4673,319,3,0.26,0,632.37
Mix 11,2_2_,Mortar,0,666.67,495.2,0,171.47,0,0,0,0.45,297,0,0,0,0,0,1833,0,22,28,396.8,5660,6533,7080,6424,716,3,0.26,0,632.37
Mix 12,2_3_,Mortar,0,666.67,553.87,112.8,0,0,0,0,0.35,235,0,0,0,0,0,1833,0,22,1,430.5,4555,4025,4625,4402,328,3,0.17,0,576.43
Mix 12,2_3_,Mortar,0,666.67,553.87,112.8,0,0,0,0,0.35,235,0,0,0,0,0,1833,0,22,3,430.5,5690,5878,5450,5673,214,3,0.17,0,576.43
Mix 12,2_3_,Mortar,0,666.67,553.87,112.8,0,0,0,0,0.35,235,0,0,0,0,0,1833,0,22,5,430.5,6013,6508,5783,6101,370,3,0.17,0,576.43
Mix 12,2_3_,Mortar,0,666.67,553.87,112.8,0,0,0,0,0.35,235,0,0,0,0,0,1833,0,22,28,430.5,8243,6973,7763,7659,641,3,0.17,0,576.43
Mix 13,2_4_,Mortar,0,666.67,333.6,0,333.07,0,0,0,0.4,265,0,0,0,0,0,1833,0,22,1,287.9,2320,2510,2065,2298,223,3,0.5,0,600.05
Mix 13,2_4_,Mortar,0,666.67,333.6,0,333.07,0,0,0,0.4,265,0,0,0,0,0,1833,0,22,3,287.9,4090,4060,4320,4157,142,3,0.5,0,600.05
Mix 13,2_4_,Mortar,0,666.67,333.6,0,333.07,0,0,0,0.4,265,0,0,0,0,0,1833,0,22,5,287.9,5055,5255,5070,5127,111,3,0.5,0,600.05
Mix 13,2_4_,Mortar,0,666.67,333.6,0,333.07,0,0,0,0.4,265,0,0,0,0,0,1833,0,22,28,287.9,7520,7213,7570,7434,194,3,0.5,0,600.05
Mix 14,2_5_,Mortar,0,666.67,466.67,0,200,0,0,0,0.2,133,0,8.67,21,0,0,1833,0,22,1,408.54,9095,8013,5605,7571,1786,3,0.3,0,626.67
Mix 14,2_5_,Mortar,0,666.67,466.67,0,200,0,0,0,0.2,133,0,8.67,21,0,0,1833,0,22,3,408.54,10043,8055,9930,9343,1116,3,0.3,0,626.67
Mix 14,2_5_,Mortar,0,666.67,466.67,0,200,0,0,0,0.2,133,0,8.67,21,0,0,1833,0,22,5,408.54,8743,9775,9775,9431,596,3,0.3,0,626.67
Mix 14,2_5_,Mortar,0,666.67,466.67,0,200,0,0,0,0.2,133,0,8.67,21,0,0,1833,0,22,28,408.54,8690,11638,12075,10801,1841,3,0.3,0,626.67
Mix 15,2_6_,Mortar,0,666.67,411.6,29.07,226,0,0,0,0.2,133,0,8.67,21,0,0,1833,0,22,1,369.69,6590,5788,5768,6048,469,3,0.38,0,598.21
Mix 15,2_6_,Mortar,0,666.67,411.6,29.07,226,0,0,0,0.2,133,0,8.67,21,0,0,1833,0,22,3,369.69,6700,8980,7375,7685,1171,3,0.38,0,598.21
Mix 15,2_6_,Mortar,0,666.67,411.6,29.07,226,0,0,0,0.2,133,0,8.67,21,0,0,1833,0,22,5,369.69,6843,8950,7298,7697,1109,3,0.38,0,598.21
Mix 15,2_6_,Mortar,0,666.67,411.6,29.07,226,0,0,0,0.2,133,0,8.67,21,0,0,1833,0,22,28,369.69,8693,11615,10238,10182,1462,3,0.38,0,598.21
Mix 16,2_7_,Mortar,0,666.67,362.93,42.93,260.8,0,0,0,0.2,133,0,8.67,21,0,0,1833,0,22,1,335.74,6295,6695,6115,6368,297,3,0.46,0,580.16
Mix 16,2_7_,Mortar,0,666.67,362.93,42.93,260.8,0,0,0,0.2,133,0,8.67,21,0,0,1833,0,22,3,335.74,8170,9558,8810,8846,694,3,0.46,0,580.16
Mix 16,2_7_,Mortar,0,666.67,362.93,42.93,260.8,0,0,0,0.2,133,0,8.67,21,0,0,1833,0,22,5,335.74,9498,10913,10595,10335,742,3,0.46,0,580.16
Mix 16,2_7_,Mortar,0,666.67,362.93,42.93,260.8,0,0,0,0.2,133,0,8.67,21,0,0,1833,0,22,28,335.74,10175,10438,10438,10350,152,3,0.46,0,580.16
Mix 17,2_8_,Mortar,0,666.67,277.47,118,271.2,0,0,0,0.2,133,0,8.67,21,0,0,1833,0,22,1,273.23,5670,4885,4423,4993,631,3,0.58,0,518.03
Mix 17,2_8_,Mortar,0,666.67,277.47,118,271.2,0,0,0,0.2,133,0,8.67,21,0,0,1833,0,22,3,273.23,7880,7405,7278,7521,318,3,0.58,0,518.03
Mix 17,2_8_,Mortar,0,666.67,277.47,118,271.2,0,0,0,0.2,133,0,8.67,21,0,0,1833,0,22,5,273.23,8435,9195,6833,8154,1206,3,0.58,0,518.03
Mix 17,2_8_,Mortar,0,666.67,277.47,118,271.2,0,0,0,0.2,133,0,8.67,21,0,0,1833,0,22,28,273.23,11263,10743,11590,11198,427,3,0.58,0,518.03
Mix 18,3_0_,Mortar,0,666.67,200.67,172.53,293.47,0,0,0,0.25,167,0,3.33,8,0,0,1833,0,22,1,200.1,3035,3063,3218,3105,99,3,0.7,0,469.95
Mix 18,3_0_,Mortar,0,666.67,200.67,172.53,293.47,0,0,0,0.25,167,0,3.33,8,0,0,1833,0,22,3,200.1,4220,4525,4653,4466,222,3,0.7,0,469.95
Mix 18,3_0_,Mortar,0,666.67,200.67,172.53,293.47,0,0,0,0.25,167,0,3.33,8,0,0,1833,0,22,5,200.1,5440,5430,5448,5439,9,3,0.7,0,469.95
Mix 18,3_0_,Mortar,0,666.67,200.67,172.53,293.47,0,0,0,0.25,167,0,3.33,8,0,0,1833,0,22,28,200.1,8695,7585,9483,8588,954,3,0.7,0,469.95
Mix 19,3_1_,Mortar,0,666.67,322.13,82.8,261.73,0,0,0,0.22,149,0,6.67,16,0,0,1833,0,22,1,298.65,5930,5988,5410,5776,318,3,0.52,0,548.08
Mix 19,3_1_,Mortar,0,666.67,322.13,82.8,261.73,0,0,0,0.22,149,0,6.67,16,0,0,1833,0,22,3,298.65,7660,7448,8348,7819,471,3,0.52,0,548.08
Mix 19,3_1_,Mortar,0,666.67,322.13,82.8,261.73,0,0,0,0.22,149,0,6.67,16,0,0,1833,0,22,5,298.65,9698,9365,8573,9212,578,3,0.52,0,548.08
Mix 19,3_1_,Mortar,0,666.67,322.13,82.8,261.73,0,0,0,0.22,149,0,6.67,16,0,0,1833,0,22,28,298.65,12980,11938,10783,11900,1099,3,0.52,0,548.08
Mix 20,3_2_,Mortar,0,666.67,293.33,73.33,300,0,0,0,0.2,133,0,8.67,21,0,0,1833,0,22,1,286.59,5008,4363,4178,4516,436,3,0.56,0,548
Mix 20,3_2_,Mortar,0,666.67,293.33,73.33,300,0,0,0,0.2,133,0,8.67,21,0,0,1833,0,22,3,286.59,8050,8063,7695,7936,209,3,0.56,0,548
Mix 20,3_2_,Mortar,0,666.67,293.33,73.33,300,0,0,0,0.2,133,0,8.67,21,0,0,1833,0,22,5,286.59,7720,8790,8323,8278,536,3,0.56,0,548
Mix 20,3_2_,Mortar,0,666.67,293.33,73.33,300,0,0,0,0.2,133,0,8.67,21,0,0,1833,0,22,28,286.59,11250,9043,9835,10043,1118,3,0.56,0,548
Mix 21,3_3_,Mortar,0,666.67,229.33,137.33,300,0,0,0,0.2,133,0,8.67,21,0,0,1833,0,22,1,239.68,4093,3250,3960,3768,453,3,0.66,0,496.8
Mix 21,3_3_,Mortar,0,666.67,229.33,137.33,300,0,0,0,0.2,133,0,8.67,21,0,0,1833,0,22,3,239.68,5493,6770,6333,6199,649,3,0.66,0,496.8
Mix 21,3_3_,Mortar,0,666.67,229.33,137.33,300,0,0,0,0.2,133,0,8.67,21,0,0,1833,0,22,5,239.68,9653,6330,8675,8219,1708,3,0.66,0,496.8
Mix 21,3_3_,Mortar,0,666.67,229.33,137.33,300,0,0,0,0.2,133,0,8.67,21,0,0,1833,0,22,28,239.68,9815,9045,8818,9226,523,3,0.66,0,496.8
Mix 22,3_4_,Mortar,0,666.67,395.33,45.2,226.13,0,0,0,0.2,133,0,8.67,21,0,0,1833,0,22,1,357.2,5943,6130,4888,5654,670,3,0.41,0,585.28
Mix 22,3_4_,Mortar,0,666.67,395.33,45.2,226.13,0,0,0,0.2,133,0,8.67,21,0,0,1833,0,22,3,357.2,8210,7508,7693,7804,364,3,0.41,0,585.28
Mix 22,3_4_,Mortar,0,666.67,395.33,45.2,226.13,0,0,0,0.2,133,0,8.67,21,0,0,1833,0,22,5,357.2,8550,9833,8443,8942,773,3,0.41,0,585.28
Mix 22,3_4_,Mortar,0,666.67,395.33,45.2,226.13,0,0,0,0.2,133,0,8.67,21,0,0,1833,0,22,28,357.2,8785,10105,10198,9696,790,3,0.41,0,585.28
Mix 23,3_5_,Mortar,0,666.67,305.07,125.87,235.73,0,0,0,0.2,133,0,8.67,21,0,0,1833,0,22,1,291.83,4785,5168,4665,4873,263,3,0.54,0,518.83
Mix 23,3_5_,Mortar,0,666.67,305.07,125.87,235.73,0,0,0,0.2,133,0,8.67,21,0,0,1833,0,22,3,291.83,7378,7978,7203,7520,406,3,0.54,0,518.83
Mix 23,3_5_,Mortar,0,666.67,305.07,125.87,235.73,0,0,0,0.2,133,0,8.67,21,0,0,1833,0,22,5,291.83,6928,8468,8468,7955,889,3,0.54,0,518.83
Mix 23,3_5_,Mortar,0,666.67,305.07,125.87,235.73,0,0,0,0.2,133,0,8.67,21,0,0,1833,0,22,28,291.83,9650,10795,10470,10305,590,3,0.54,0,518.83
Mix 24,3_6_,Mortar,0,666.67,408.13,108.53,150,0,0,0,0.21,139,0,8.67,21,0,0,1833,0,22,1,362.5,5460,4763,5503,5242,415,3,0.39,0,549.84
Mix 24,3_6_,Mortar,0,666.67,408.13,108.53,150,0,0,0,0.21,139,0,8.67,21,0,0,1833,0,22,3,362.5,6930,6910,6733,6858,108,3,0.39,0,549.84
Mix 24,3_6_,Mortar,0,666.67,408.13,108.53,150,0,0,0,0.21,139,0,8.67,21,0,0,1833,0,22,5,362.5,9830,8465,7450,8582,1194,3,0.39,0,549.84
Mix 24,3_6_,Mortar,0,666.67,408.13,108.53,150,0,0,0,0.21,139,0,8.67,21,0,0,1833,0,22,28,362.5,11170,8720,7783,9224,1749,3,0.39,0,549.84
Mix 25,3_7_,Mortar,0,666.67,340.8,101.07,224.8,0,0,0,0.2,133,0,8.67,21,0,0,1833,0,22,1,317.6,4793,5140,4883,4939,180,3,0.49,0,540.85
Mix 25,3_7_,Mortar,0,666.67,340.8,101.07,224.8,0,0,0,0.2,133,0,8.67,21,0,0,1833,0,22,3,317.6,6238,7700,7810,7249,878,3,0.49,0,540.85
Mix 25,3_7_,Mortar,0,666.67,340.8,101.07,224.8,0,0,0,0.2,133,0,8.67,21,0,0,1833,0,22,5,317.6,6990,8023,8020,7678,596,3,0.49,0,540.85
Mix 25,3_7_,Mortar,0,666.67,340.8,101.07,224.8,0,0,0,0.2,133,0,8.67,21,0,0,1833,0,22,28,317.6,9630,9683,12393,10569,1580,3,0.49,0,540.85
Mix 26,3_8_,Mortar,0,533.47,272.67,80.93,179.87,0,0,0,0.25,133,0,8.67,26,0,0,1833,0,22,1,261.38,3093,2825,3090,3003,154,3,0.49,0,432.75
Mix 26,3_8_,Mortar,0,533.47,272.67,80.93,179.87,0,0,0,0.25,133,0,8.67,26,0,0,1833,0,22,3,261.38,5743,4319,4781,4948,726,3,0.49,0,432.75
Mix 26,3_8_,Mortar,0,533.47,272.67,80.93,179.87,0,0,0,0.25,133,0,8.67,26,0,0,1833,0,22,5,261.38,5145,6108,6216,5823,590,3,0.49,0,432.75
Mix 26,3_8_,Mortar,0,533.47,272.67,80.93,179.87,0,0,0,0.25,133,0,8.67,26,0,0,1833,0,22,28,261.38,8388,7530,7933,7950,429,3,0.49,0,432.75
Mix 27,3S_0_3_3 variant,Mortar,0,666.67,229.33,137.33,300,0,0,0,0.3,200,0,0,0,0,0,1833,0,22,1,209.07,1983,2235,2305,2174,169,3,0.66,0,496.8
Mix 27,3S_0_3_3 variant,Mortar,0,666.67,229.33,137.33,300,0,0,0,0.3,200,0,0,0,0,0,1833,0,22,3,209.07,3993,4490,3730,4071,386,3,0.66,0,496.8
Mix 27,3S_0_3_3 variant,Mortar,0,666.67,229.33,137.33,300,0,0,0,0.3,200,0,0,0,0,0,1833,0,22,28,209.07,9265,7578,8955,8599,898,3,0.66,0,496.8
Mix 28,3S_1_3_3 variant,Mortar,0,666.67,229.33,300,137.33,0,0,0,0.3,200,0,0,0,0,0,1833,0,22,1,199.94,2075,2113,1948,2045,86,3,0.66,0,399.2
Mix 28,3S_1_3_3 variant,Mortar,0,666.67,229.33,300,137.33,0,0,0,0.3,200,0,0,0,0,0,1833,0,22,5,199.94,5035,5485,4388,4969,551,3,0.66,0,399.2
Mix 28,3S_1_3_3 variant,Mortar,0,666.67,229.33,300,137.33,0,0,0,0.3,200,0,0,0,0,0,1833,0,22,28,199.94,6188,5670,6578,6145,456,3,0.66,0,399.2
Mix 29,3S_2_3_0variant,Mortar,0,533.33,160.53,138,234.8,0,0,0,0.31,167,0,3.33,10,0,0,1967,0,22,1,162.86,1368,1550,1445,1454,91,3,0.7,0,375.97
Mix 29,3S_2_3_0variant,Mortar,0,533.33,160.53,138,234.8,0,0,0,0.31,167,0,3.33,10,0,0,1967,0,22,3,162.86,2835,2923,925,2228,1129,3,0.7,0,375.97
Mix 29,3S_2_3_0variant,Mortar,0,533.33,160.53,138,234.8,0,0,0,0.31,167,0,3.33,10,0,0,1967,0,22,5,162.86,3315,3423,3583,3440,135,3,0.7,0,375.97
Mix 29,3S_2_3_0variant,Mortar,0,533.33,160.53,138,234.8,0,0,0,0.31,167,0,3.33,10,0,0,1967,0,22,28,162.86,7545,6293,5725,6521,931,3,0.7,0,375.97
Mix 30,3S_3_3_0variant,Mortar,0,800,240.8,207.07,352.13,0,0,0,0.21,167,0,3.33,7,0,0,1700,0,22,1,236.28,3133,3600,3538,3424,254,3,0.7,0,563.92
Mix 30,3S_3_3_0variant,Mortar,0,800,240.8,207.07,352.13,0,0,0,0.21,167,0,3.33,7,0,0,1700,0,22,3,236.28,6715,6720,6733,6723,9,3,0.7,0,563.92
Mix 30,3S_3_3_0variant,Mortar,0,800,240.8,207.07,352.13,0,0,0,0.21,167,0,3.33,7,0,0,1700,0,22,5,236.28,9275,7670,7355,8100,1030,3,0.7,0,563.92
Mix 30,3S_3_3_0variant,Mortar,0,800,240.8,207.07,352.13,0,0,0,0.21,167,0,3.33,7,0,0,1700,0,22,28,236.28,12430,11240,10400,11357,1020,3,0.7,0,563.92
Mix 31,C0_2_6 coldtemp,Mortar,0,668,412,29.33,226.67,0,0,0,0.2,133,0,8.67,21,0,0,1833,0,4.5,1,369.69,2015,2088,2130,2078,58,3,0.38,0,599.2
Mix 31,C0_2_6 coldtemp,Mortar,0,668,412,29.33,226.67,0,0,0,0.2,133,0,8.67,21,0,0,1833,0,4.5,3,369.69,6363,6258,5319,5980,575,3,0.38,0,599.2
Mix 31,C0_2_6 coldtemp,Mortar,0,668,412,29.33,226.67,0,0,0,0.2,133,0,8.67,21,0,0,1833,0,4.5,5,369.69,4963,7023,6433,6140,1061,3,0.38,0,599.2
Mix 31,C0_2_6 coldtemp,Mortar,0,668,412,29.33,226.67,0,0,0,0.2,133,0,8.67,21,0,0,1833,0,4.5,28,369.69,10798,6768,9290,8952,2036,3,0.38,0,599.2
Mix 32,C1_2_7 coldtemp,Mortar,0,666.67,362.67,42.67,261.33,0,0,0,0.2,133,0,8.67,21,0,0,1833,0,4.5,1,335.74,1225,1195,1170,1197,28,3,0.46,0,580.27
Mix 32,C1_2_7 coldtemp,Mortar,0,666.67,362.67,42.67,261.33,0,0,0,0.2,133,0,8.67,21,0,0,1833,0,4.5,3,335.74,4643,4423,4353,4473,151,3,0.46,0,580.27
Mix 32,C1_2_7 coldtemp,Mortar,0,666.67,362.67,42.67,261.33,0,0,0,0.2,133,0,8.67,21,0,0,1833,0,4.5,5,335.74,7015,6338,5510,6288,754,3,0.46,0,580.27
Mix 32,C1_2_7 coldtemp,Mortar,0,666.67,362.67,42.67,261.33,0,0,0,0.2,133,0,8.67,21,0,0,1833,0,4.5,28,335.74,8688,8130,9930,8916,921,3,0.46,0,580.27
Mix 33,C2_2_8 coldtemp,Mortar,0,666.67,277.33,118.67,270.67,0,0,0,0.2,133,0,8.67,21,0,0,1833,0,4.5,1,273.23,495,470,493,486,14,3,0.58,0,517.6
Mix 33,C2_2_8 coldtemp,Mortar,0,666.67,277.33,118.67,270.67,0,0,0,0.2,133,0,8.67,21,0,0,1833,0,4.5,3,273.23,2883,3130,3208,3073,170,3,0.58,0,517.6
Mix 33,C2_2_8 coldtemp,Mortar,0,666.67,277.33,118.67,270.67,0,0,0,0.2,133,0,8.67,21,0,0,1833,0,4.5,5,273.23,4625,4565,3775,4322,474,3,0.58,0,517.6
Mix 33,C2_2_8 coldtemp,Mortar,0,666.67,277.33,118.67,270.67,0,0,0,0.2,133,0,8.67,21,0,0,1833,0,4.5,28,273.23,8010,9015,8170,8398,540,3,0.58,0,517.6
Mix 34,C3_3_0 coldtemp,Mortar,0,666.67,201.33,172,293.33,0,0,0,0.25,167,0,3.33,8,0,0,1833,0,4.5,1,200.1,250,198,225,224,26,3,0.7,0,470.4
Mix 34,C3_3_0 coldtemp,Mortar,0,666.67,201.33,172,293.33,0,0,0,0.25,167,0,3.33,8,0,0,1833,0,4.5,3,200.1,2083,2048,2065,2065,18,3,0.7,0,470.4
Mix 34,C3_3_0 coldtemp,Mortar,0,666.67,201.33,172,293.33,0,0,0,0.25,167,0,3.33,8,0,0,1833,0,4.5,5,200.1,2953,3145,3190,3096,126,3,0.7,0,470.4
Mix 34,C3_3_0 coldtemp,Mortar,0,666.67,201.33,172,293.33,0,0,0,0.25,167,0,3.33,8,0,0,1833,0,4.5,28,200.1,5118,6403,5693,5738,644,3,0.7,0,470.4
Mix 35,C4_3_3 coldtemp,Mortar,0,666.67,229.33,137.33,300,0,0,0,0.2,133,0,8.67,21,0,0,1833,0,4.5,1,239.68,123,80,305,169,119,3,0.66,0,496.8
Mix 35,C4_3_3 coldtemp,Mortar,0,666.67,229.33,137.33,300,0,0,0,0.2,133,0,8.67,21,0,0,1833,0,4.5,3,239.68,3453,3725,4203,3794,380,3,0.66,0,496.8
Mix 35,C4_3_3 coldtemp,Mortar,0,666.67,229.33,137.33,300,0,0,0,0.2,133,0,8.67,21,0,0,1833,0,4.5,5,239.68,4550,4129,5808,4829,874,3,0.66,0,496.8
Mix 35,C4_3_3 coldtemp,Mortar,0,666.67,229.33,137.33,300,0,0,0,0.2,133,0,8.67,21,0,0,1833,0,4.5,28,239.68,9745,9230,8223,9066,774,3,0.66,0,496.8
Mix 36,C5_3_4 coldtemp,Mortar,0,668,396,45.33,226.67,0,0,0,0.2,133,0,8.67,21,0,0,1833,0,4.5,1,357.2,1235,1250,1090,1192,88,3,0.41,0,586.4
Mix 36,C5_3_4 coldtemp,Mortar,0,668,396,45.33,226.67,0,0,0,0.2,133,0,8.67,21,0,0,1833,0,4.5,3,357.2,5355,4955,5595,5302,323,3,0.41,0,586.4
Mix 36,C5_3_4 coldtemp,Mortar,0,668,396,45.33,226.67,0,0,0,0.2,133,0,8.67,21,0,0,1833,0,4.5,5,357.2,7403,6373,6995,6924,519,3,0.41,0,586.4
Mix 36,C5_3_4 coldtemp,Mortar,0,668,396,45.33,226.67,0,0,0,0.2,133,0,8.67,21,0,0,1833,0,4.5,28,357.2,7668,7848,9705,8407,1128,3,0.41,0,586.4
Mix 37,C6_3_7 coldtemp,Mortar,0,668,341.33,101.33,225.33,0,0,0,0.2,133,0,8.67,21,0,0,1833,0,4.5,1,317.6,845,813,908,855,48,3,0.49,0,541.87
Mix 37,C6_3_7 coldtemp,Mortar,0,668,341.33,101.33,225.33,0,0,0,0.2,133,0,8.67,21,0,0,1833,0,4.5,3,317.6,4745,3973,4963,4560,520,3,0.49,0,541.87
Mix 37,C6_3_7 coldtemp,Mortar,0,668,341.33,101.33,225.33,0,0,0,0.2,133,0,8.67,21,0,0,1833,0,4.5,5,317.6,6185,5575,5648,5803,333,3,0.49,0,541.87
Mix 37,C6_3_7 coldtemp,Mortar,0,668,341.33,101.33,225.33,0,0,0,0.2,133,0,8.67,21,0,0,1833,0,4.5,28,317.6,8738,9713,8265,8905,738,3,0.49,0,541.87
Mix 38,4_0_,Mortar,0,400,400,0,0,0,0,0,0.2,80,0,10.67,43,0,0,2100,0,22,1,348.19,2728,2325,2460,2504,205,3,0,0,400
Mix 38,4_0_,Mortar,0,400,400,0,0,0,0,0,0.2,80,0,10.67,43,0,0,2100,0,22,3,348.19,2303,3570,2970,2948,634,3,0,0,400
Mix 38,4_0_,Mortar,0,400,400,0,0,0,0,0,0.2,80,0,10.67,43,0,0,2100,0,22,5,348.19,3808,2998,4178,3661,604,3,0,0,400
Mix 38,4_0_,Mortar,0,400,400,0,0,0,0,0,0.2,80,0,10.67,43,0,0,2100,0,22,28,348.19,4185,2938,4215,3779,729,3,0,0,400
Mix 39,4_1_,Mortar,0,229.33,229.33,0,0,0,0,0,0.2,45,0,13.33,93,0,0,2271,0,22,1,228.71,160,235,128,174,55,3,0,0,229.33
Mix 39,4_1_,Mortar,0,229.33,229.33,0,0,0,0,0,0.2,45,0,13.33,93,0,0,2271,0,22,3,228.71,1250,1238,1353,1280,63,3,0,0,229.33
Mix 39,4_1_,Mortar,0,229.33,229.33,0,0,0,0,0,0.2,45,0,13.33,93,0,0,2271,0,22,5,228.71,1538,1220,1220,1326,184,3,0,0,229.33
Mix 39,4_1_,Mortar,0,229.33,229.33,0,0,0,0,0,0.2,45,0,13.33,93,0,0,2271,0,22,28,228.71,1510,1468,1288,1422,118,3,0,0,229.33
Mix 40,4_2_,Mortar,0,209.33,122.67,32,54.67,0,0,0,0.2,43,0,10.67,82,0,0,2289,0,22,1,143.17,173,165,175,171,5,3,0.41,0,172.8
Mix 40,4_2_,Mortar,0,209.33,122.67,32,54.67,0,0,0,0.2,43,0,10.67,82,0,0,2289,0,22,3,143.17,620,833,833,762,123,3,0.41,0,172.8
Mix 40,4_2_,Mortar,0,209.33,122.67,32,54.67,0,0,0,0.2,43,0,10.67,82,0,0,2289,0,22,5,143.17,778,760,760,766,10,3,0.41,0,172.8
Mix 40,4_2_,Mortar,0,209.33,122.67,32,54.67,0,0,0,0.2,43,0,10.67,82,0,0,2289,0,22,28,143.17,1225,1145,1258,1209,58,3,0.41,0,172.8
Mix 41,4_3_,Mortar,0,170.67,97.33,2.67,70.67,0,0,0,0.48,83,0,10.67,100,0,0,2329,0,22,1,123.97,90,100,68,86,16,3,0.43,0,154.4
Mix 41,4_3_,Mortar,0,170.67,97.33,2.67,70.67,0,0,0,0.48,83,0,10.67,100,0,0,2329,0,22,3,123.97,395,440,463,433,35,3,0.43,0,154.4
Mix 41,4_3_,Mortar,0,170.67,97.33,2.67,70.67,0,0,0,0.48,83,0,10.67,100,0,0,2329,0,22,5,123.97,505,613,493,537,66,3,0.43,0,154.4
Mix 41,4_3_,Mortar,0,170.67,97.33,2.67,70.67,0,0,0,0.48,83,0,10.67,100,0,0,2329,0,22,28,123.97,985,1135,945,1022,100,3,0.43,0,154.4
Mix 42,4_4_,Mortar,0,476,314.67,112,49.33,0,0,0,0.24,116,0,10.67,36,0,0,2025,0,22,1,289.91,2753,2460,2740,2651,166,3,0.34,0,376.53
Mix 42,4_4_,Mortar,0,476,314.67,112,49.33,0,0,0,0.24,116,0,10.67,36,0,0,2025,0,22,3,289.91,4653,4060,3973,4228,370,3,0.34,0,376.53
Mix 42,4_4_,Mortar,0,476,314.67,112,49.33,0,0,0,0.24,116,0,10.67,36,0,0,2025,0,22,5,289.91,5315,5428,4700,5148,392,3,0.34,0,376.53
Mix 42,4_4_,Mortar,0,476,314.67,112,49.33,0,0,0,0.24,116,0,10.67,36,0,0,2025,0,22,28,289.91,6125,7670,6803,6866,774,3,0.34,0,376.53
Mix 43,4_5_,Mortar,0,417.33,366.67,25.33,25.33,0,0,0,0.2,84,0,10.67,41,0,0,2083,0,22,1,325.21,2908,2970,2983,2954,40,3,0.12,0,392
Mix 43,4_5_,Mortar,0,417.33,366.67,25.33,25.33,0,0,0,0.2,84,0,10.67,41,0,0,2083,0,22,3,325.21,3498,4558,4083,4046,531,3,0.12,0,392
Mix 43,4_5_,Mortar,0,417.33,366.67,25.33,25.33,0,0,0,0.2,84,0,10.67,41,0,0,2083,0,22,5,325.21,5205,5005,4363,4858,440,3,0.12,0,392
Mix 43,4_5_,Mortar,0,417.33,366.67,25.33,25.33,0,0,0,0.2,84,0,10.67,41,0,0,2083,0,22,28,325.21,6473,6028,5763,6088,359,3,0.12,0,392
Mix 44,4_6_,Mortar,0,144,66.67,68,9.33,0,0,0,0.31,45,0,13.33,148,0,0,2357,0,22,3,106.66,75,108,113,98,20,3,0.54,0,87.73
Mix 44,4_6_,Mortar,0,144,66.67,68,9.33,0,0,0,0.31,45,0,13.33,148,0,0,2357,0,22,5,106.66,293,240,273,268,26,3,0.54,0,87.73
Mix 44,4_6_,Mortar,0,144,66.67,68,9.33,0,0,0,0.31,45,0,13.33,148,0,0,2357,0,22,28,106.66,450,628,510,529,90,3,0.54,0,87.73
Mix 45,4_7_,Mortar,0,498.67,498.67,0,0,0,0,0,0.2,100,0,10.67,34,0,0,2001,0,22,1,422.64,5520,5553,4488,5187,606,3,0,0,498.67
Mix 45,4_7_,Mortar,0,498.67,498.67,0,0,0,0,0,0.2,100,0,10.67,34,0,0,2001,0,22,3,422.64,6933,6390,6908,6743,306,3,0,0,498.67
Mix 45,4_7_,Mortar,0,498.67,498.67,0,0,0,0,0,0.2,100,0,10.67,34,0,0,2001,0,22,5,422.64,8413,7798,6058,7423,1221,3,0,0,498.67
Mix 45,4_7_,Mortar,0,498.67,498.67,0,0,0,0,0,0.2,100,0,10.67,34,0,0,2001,0,22,28,422.64,8015,9528,7823,8455,934,3,0,0,498.67
Mix 46,4_8_,Mortar,0,189.33,160,13.33,16,0,0,0,0.34,64,0,10.67,90,0,0,2311,0,22,1,167.49,75,68,95,79,14,3,0.15,0,175.47
Mix 46,4_8_,Mortar,0,189.33,160,13.33,16,0,0,0,0.34,64,0,10.67,90,0,0,2311,0,22,3,167.49,568,555,693,605,76,3,0.15,0,175.47
Mix 46,4_8_,Mortar,0,189.33,160,13.33,16,0,0,0,0.34,64,0,10.67,90,0,0,2311,0,22,5,167.49,673,610,625,636,33,3,0.15,0,175.47
Mix 46,4_8_,Mortar,0,189.33,160,13.33,16,0,0,0,0.34,64,0,10.67,90,0,0,2311,0,22,28,167.49,758,1005,773,845,139,3,0.15,0,175.47
Mix 47,4_9_,Mortar,0,489.33,334.67,104,50.67,0,0,0,0.2,99,0,10.67,35,0,0,2011,0,22,1,305.08,4225,4368,2865,3819,829,3,0.32,0,396
Mix 47,4_9_,Mortar,0,489.33,334.67,104,50.67,0,0,0,0.2,99,0,10.67,35,0,0,2011,0,22,3,305.08,6638,5088,4730,5485,1014,3,0.32,0,396
Mix 47,4_9_,Mortar,0,489.33,334.67,104,50.67,0,0,0,0.2,99,0,10.67,35,0,0,2011,0,22,5,305.08,6488,6115,7070,6558,481,3,0.32,0,396
Mix 47,4_9_,Mortar,0,489.33,334.67,104,50.67,0,0,0,0.2,99,0,10.67,35,0,0,2011,0,22,28,305.08,8438,9290,7610,8446,840,3,0.32,0,396
Mix 48,4_10_,Mortar,0,952,886.67,9.33,56,0,0,0,0.26,249,0,2.67,4,0,0,1549,0,22,1,694.58,8288,7233,8070,7863,557,3,0.07,0,933.33
Mix 48,4_10_,Mortar,0,952,886.67,9.33,56,0,0,0,0.26,249,0,2.67,4,0,0,1549,0,22,3,694.58,7340,8288,8288,7972,547,3,0.07,0,933.33
Mix 48,4_10_,Mortar,0,952,886.67,9.33,56,0,0,0,0.26,249,0,2.67,4,0,0,1549,0,22,5,694.58,9338,7460,7278,8025,1140,3,0.07,0,933.33
Mix 48,4_10_,Mortar,0,952,886.67,9.33,56,0,0,0,0.26,249,0,2.67,4,0,0,1549,0,22,28,694.58,8068,7890,8748,8235,453,3,0.07,0,933.33
Mix 49,4_11_,Mortar,0,978.67,894.67,25.33,58.67,0,0,0,0.25,240,0,2.67,4,0,0,1521,0,22,1,701.42,7738,7580,7595,7638,87,3,0.09,0,946.67
Mix 49,4_11_,Mortar,0,978.67,894.67,25.33,58.67,0,0,0,0.25,240,0,2.67,4,0,0,1521,0,22,3,701.42,8345,8603,8358,8435,145,3,0.09,0,946.67
Mix 49,4_11_,Mortar,0,978.67,894.67,25.33,58.67,0,0,0,0.25,240,0,2.67,4,0,0,1521,0,22,5,701.42,8443,8443,8443,8443,0,3,0.09,0,946.67
Mix 49,4_11_,Mortar,0,978.67,894.67,25.33,58.67,0,0,0,0.25,240,0,2.67,4,0,0,1521,0,22,28,701.42,11155,10503,9685,10448,737,3,0.09,0,946.67
Mix 50,5_0_3S_3 w/b = 0.35,Mortar,0,800,240.78,207.09,352.13,0,0,0,0.36,287,0,0,0,0,0,1700,0,22,1,224.36,1343,1280,1333,1319,34,3,0.7,0,563.9
Mix 50,5_0_3S_3,Mortar,0,800,240.78,207.09,352.13,0,0,0,0.36,287,0,0,0,0,0,1700,0,22,3,224.36,2323,2433,2310,2355,68,3,0.7,0,563.9
Mix 50,5_0_3S_3,Mortar,0,800,240.78,207.09,352.13,0,0,0,0.36,287,0,0,0,0,0,1700,0,22,5,224.36,3150,3198,3420,3256,144,3,0.7,0,563.9
Mix 50,5_0_3S_3,Mortar,0,800,240.78,207.09,352.13,0,0,0,0.36,287,0,0,0,0,0,1700,0,22,28,224.36,6860,6543,7678,7027,586,3,0.7,0,563.9
Mix 51,5_1_3_3,Mortar,0,666.67,229.38,137.29,300,0,0,0,0.35,233,0,0,0,0,0,1833,0,22,1,209.07,1540,1520,1495,1518,23,3,0.66,0,496.84
Mix 51,5_1_3_3,Mortar,0,666.67,229.38,137.29,300,0,0,0,0.35,233,0,0,0,0,0,1833,0,22,3,209.07,2683,3005,2895,2861,164,3,0.66,0,496.84
Mix 51,5_1_3_3,Mortar,0,666.67,229.38,137.29,300,0,0,0,0.35,233,0,0,0,0,0,1833,0,22,5,209.07,3895,4460,3880,4078,331,3,0.66,0,496.84
Mix 51,5_1_3_3,Mortar,0,666.67,229.38,137.29,300,0,0,0,0.35,233,0,0,0,0,0,1833,0,22,28,209.07,7233,8388,7365,7662,632,3,0.66,0,496.84
Mix 52,5_2_4_4,Mortar,0,477.14,316,112.14,49,0,0,0,0.35,167,0,0,0,0,0,2025,0,22,1,253.73,2398,2645,2130,2391,258,3,0.34,0,377.63
Mix 52,5_2_4_4,Mortar,0,477.14,316,112.14,49,0,0,0,0.35,167,0,0,0,0,0,2025,0,22,3,253.73,3378,3318,3653,3449,179,3,0.34,0,377.63
Mix 52,5_2_4_4,Mortar,0,477.14,316,112.14,49,0,0,0,0.35,167,0,0,0,0,0,2025,0,22,5,253.73,4233,3933,4198,4121,164,3,0.34,0,377.63
Mix 52,5_2_4_4,Mortar,0,477.14,316,112.14,49,0,0,0,0.35,167,0,0,0,0,0,2025,0,22,28,253.73,6453,6058,5523,6011,467,3,0.34,0,377.63
Mix 53,5_3_4_4 inv,Mortar,0,477.33,49.33,112,316,0,0,0,0.35,167,0,0,0,0,0,2025,0,22,1,72.99,175,188,178,180,7,3,0.9,0,324.53
Mix 53,5_3_4_4 inv,Mortar,0,477.33,49.33,112,316,0,0,0,0.35,167,0,0,0,0,0,2025,0,22,3,72.99,420,455,433,436,18,3,0.9,0,324.53
Mix 53,5_3_4_4 inv,Mortar,0,477.33,49.33,112,316,0,0,0,0.35,167,0,0,0,0,0,2025,0,22,5,72.99,805,793,803,800,7,3,0.9,0,324.53
Mix 53,5_3_4_4 inv,Mortar,0,477.33,49.33,112,316,0,0,0,0.35,167,0,0,0,0,0,2025,0,22,28,72.99,3800,3695,3508,3668,148,3,0.9,0,324.53
Mix 54,5_4_,Mortar,0,720,253.33,160,306.67,0,0,0,0.35,252,0,0,0,0,0,1947,0,22,1,228.88,1318,1343,1403,1354,44,3,0.65,0,530.67
Mix 54,5_4_,Mortar,0,720,253.33,160,306.67,0,0,0,0.35,252,0,0,0,0,0,1947,0,22,3,228.88,2670,2685,2968,2774,168,3,0.65,0,530.67
Mix 54,5_4_,Mortar,0,720,253.33,160,306.67,0,0,0,0.35,252,0,0,0,0,0,1947,0,22,5,228.88,3760,3993,3950,3901,124,3,0.65,0,530.67
Mix 54,5_4_,Mortar,0,720,253.33,160,306.67,0,0,0,0.35,252,0,0,0,0,0,1947,0,22,28,228.88,7165,6585,6033,6594,566,3,0.65,0,530.67
Mix 55,5_5_,Mortar,0,666.67,229.33,164,273.33,0,0,0,0.35,233,0,0,0,0,0,2000,0,22,1,207.94,1158,1198,1185,1180,20,3,0.66,0,480.8
Mix 55,5_5_,Mortar,0,666.67,229.33,164,273.33,0,0,0,0.35,233,0,0,0,0,0,2000,0,22,3,207.94,2668,2368,2723,2586,191,3,0.66,0,480.8
Mix 55,5_5_,Mortar,0,666.67,229.33,164,273.33,0,0,0,0.35,233,0,0,0,0,0,2000,0,22,5,207.94,3445,3720,3525,3563,141,3,0.66,0,480.8
Mix 55,5_5_,Mortar,0,666.67,229.33,164,273.33,0,0,0,0.35,233,0,0,0,0,0,2000,0,22,28,207.94,6863,6278,7255,6798,492,3,0.66,0,480.8
Mix 56,5_6_3_3 variant,Mortar,0,529.33,229.33,0,300,0,0,0,0.38,200,0,1.33,4,0,0,1967,0,22,1,210.23,1455,1443,1460,1453,9,3,0.57,0,469.33
Mix 56,5_6_3_3 variant,Mortar,0,529.33,229.33,0,300,0,0,0,0.38,200,0,1.33,4,0,0,1967,0,22,3,210.23,2975,3035,2845,2952,97,3,0.57,0,469.33
Mix 56,5_6_3_3 variant,Mortar,0,529.33,229.33,0,300,0,0,0,0.38,200,0,1.33,4,0,0,1967,0,22,5,210.23,3945,3973,3860,3926,59,3,0.57,0,469.33
Mix 56,5_6_3_3 variant,Mortar,0,529.33,229.33,0,300,0,0,0,0.38,200,0,1.33,4,0,0,1967,0,22,28,210.23,7388,6500,6820,6903,449,3,0.57,0,469.33
Mix 57,5_7_3_3 variant,Mortar,0,673.33,240,0,433.33,0,0,0,0.36,240,0,0,0,0,0,1833,0,22,1,224.78,1300,1333,1340,1324,21,3,0.64,0,586.67
Mix 57,5_7_3_3 variant,Mortar,0,673.33,240,0,433.33,0,0,0,0.36,240,0,0,0,0,0,1833,0,22,3,224.78,3310,3373,3078,3253,155,3,0.64,0,586.67
Mix 57,5_7_3_3 variant,Mortar,0,673.33,240,0,433.33,0,0,0,0.36,240,0,0,0,0,0,1833,0,22,5,224.78,3893,4150,4253,4098,185,3,0.64,0,586.67
Mix 57,5_7_3_3 variant,Mortar,0,673.33,240,0,433.33,0,0,0,0.36,240,0,0,0,0,0,1833,0,22,28,224.78,7005,7140,6518,6888,327,3,0.64,0,586.67
Mix 58,C7_HUMAN,Mortar,0,990,870,0,120,0,0,0,0.29,287,0,0,0,0,0,1510,0,4.5,1,677.46,3100,3463,3285,3283,181,3,0.12,0,966
Mix 58,C7_HUMAN,Mortar,0,990,870,0,120,0,0,0,0.29,287,0,0,0,0,0,1510,0,4.5,3,677.46,6218,5755,6333,6102,306,3,0.12,0,966
Mix 58,C7_HUMAN,Mortar,0,990,870,0,120,0,0,0,0.29,287,0,0,0,0,0,1510,0,4.5,5,677.46,5785,6953,6608,6448,600,3,0.12,0,966
Mix 59,C8_HUMAN,Mortar,0,714.67,498.67,216,0,0,0,0,0.37,267,0,0,0,0,0,1785,0,4.5,1,391.47,565,548,470,528,51,3,0.3,0,541.87
Mix 59,C8_HUMAN,Mortar,0,714.67,498.67,216,0,0,0,0,0.37,267,0,0,0,0,0,1785,0,4.5,3,391.47,3058,2953,3315,3108,187,3,0.3,0,541.87
Mix 59,C8_HUMAN,Mortar,0,714.67,498.67,216,0,0,0,0,0.37,267,0,0,0,0,0,1785,0,4.5,5,391.47,4018,3848,3998,3954,93,3,0.3,0,541.87
Mix 60,6_0_,Mortar,0,1266.67,110.27,0,1156.4,0,0,0,0.35,443,0,0,0,0,0,1233,0,22,1,185.82,248,308,303,286,33,3,0.91,0,1035.39
Mix 60,6_0_,Mortar,0,1266.67,110.27,0,1156.4,0,0,0,0.35,443,0,0,0,0,0,1233,0,22,3,185.82,2065,2208,2045,2106,89,3,0.91,0,1035.39
Mix 60,6_0_,Mortar,0,1266.67,110.27,0,1156.4,0,0,0,0.35,443,0,0,0,0,0,1233,0,22,5,185.82,3550,3403,3298,3417,127,3,0.91,0,1035.39
Mix 60,6_0_,Mortar,0,1266.67,110.27,0,1156.4,0,0,0,0.35,443,0,0,0,0,0,1233,0,22,28,185.82,3550,3403,3298,3417,127,3,0.91,0,1035.39
Mix 61,6_1_,Mortar,0,580.4,168.53,14.53,397.33,0,0,0,0.35,203,0,0,0,0,0,1920,0,22,1,168.26,1005,1030,1008,1014,14,3,0.71,0,489.31
Mix 61,6_1_,Mortar,0,580.4,168.53,14.53,397.33,0,0,0,0.35,203,0,0,0,0,0,1920,0,22,3,168.26,2505,2635,2590,2577,66,3,0.71,0,489.31
Mix 61,6_1_,Mortar,0,580.4,168.53,14.53,397.33,0,0,0,0.35,203,0,0,0,0,0,1920,0,22,5,168.26,3470,3723,3800,3664,173,3,0.71,0,489.31
Mix 61,6_1_,Mortar,0,580.4,168.53,14.53,397.33,0,0,0,0.35,203,0,0,0,0,0,1920,0,22,28,168.26,5655,6953,7060,6556,782,3,0.71,0,489.31
Mix 62,6_2,Mortar,0,1198.67,0,0,1198.67,0,0,0,0.24,286.67,0,0,0,0,0,1301.33,0,22,3,105.82,293,268,283,281,13,3,1,0,958.933
Mix 62,6_2,Mortar,0,1198.67,0,0,1198.67,0,0,0,0.24,286.67,0,0,0,0,0,1301.33,0,22,5,105.82,900,890,903,898,7,3,1,0,958.933
Mix 62,6_2,Mortar,0,1198.67,0,0,1198.67,0,0,0,0.24,286.67,0,0,0,0,0,1301.33,0,22,28,105.82,3120,3593,4010,3574,445,3,1,0,958.933
Mix 63,6_3,Mortar,0,570.13,129.47,2.67,438,0,0,0,0.4,225.33,0,0,0,0,0,1857.33,0,22,1,140.77,630,593,610,611,19,3,0.77,0,480.933
Mix 63,6_3,Mortar,0,570.13,129.47,2.67,438,0,0,0,0.4,225.33,0,0,0,0,0,1857.33,0,22,3,140.77,2245,1320,2165,1910,513,3,0.77,0,480.933
Mix 63,6_3,Mortar,0,570.13,129.47,2.67,438,0,0,0,0.4,225.33,0,0,0,0,0,1857.33,0,22,5,140.77,3688,3598,3608,3631,49,3,0.77,0,480.933
Mix 63,6_3,Mortar,0,570.13,129.47,2.67,438,0,0,0,0.4,225.33,0,0,0,0,0,1857.33,0,22,28,140.77,5873,6008,5975,5952,70,3,0.77,0,480.933
Mix 64,6_4,Mortar,0,725.33,49.33,44,632,0,0,0,0.35,253.33,0,0,0,0,0,1773.33,0,22,1,97.31,203,213,215,210,7,3,0.93,0,572.533
Mix 64,6_4,Mortar,0,725.33,49.33,44,632,0,0,0,0.35,253.33,0,0,0,0,0,1773.33,0,22,3,97.31,1455,1593,1468,1505,76,3,0.93,0,572.533
Mix 64,6_4,Mortar,0,725.33,49.33,44,632,0,0,0,0.35,253.33,0,0,0,0,0,1773.33,0,22,5,97.31,2870,2660,3020,2850,181,3,0.93,0,572.533
Mix 64,6_4,Mortar,0,725.33,49.33,44,632,0,0,0,0.35,253.33,0,0,0,0,0,1773.33,0,22,28,97.31,5250,4845,4940,5012,212,3,0.93,0,572.533
Mix 65,6_5,Mortar,0,989.33,194.67,13.33,781.33,0,0,0,0.35,345.33,0,0,0,0,0,1512,0,22,1,219.72,615,653,658,642,23,3,0.8,0,825.067
Mix 65,6_5,Mortar,0,989.33,194.67,13.33,781.33,0,0,0,0.35,345.33,0,0,0,0,0,1512,0,22,3,219.72,2358,2515,2643,2505,143,3,0.8,0,825.067
Mix 65,6_5,Mortar,0,989.33,194.67,13.33,781.33,0,0,0,0.35,345.33,0,0,0,0,0,1512,0,22,5,219.72,3345,3820,3900,3688,300,3,0.8,0,825.067
Mix 65,6_5,Mortar,0,989.33,194.67,13.33,781.33,0,0,0,0.35,345.33,0,0,0,0,0,1512,0,22,28,219.72,7955,7025,7133,7371,509,3,0.8,0,825.067
Mix 66,"100% 1L, w/b=0.3",Mortar,0,666.67,666.67,0,0,0,0,0,0.3,200,0,5.33,11,0,0,1833,0,22,1,530.24,4770,4845,5595,5070,456,3,0,0,666.67
Mix 66,"100% 1L, w/b=0.3",Mortar,0,666.67,666.67,0,0,0,0,0,0.3,200,0,5.33,11,0,0,1833,0,22,3,530.24,6799,6118,6184,6367,376,3,0,0,666.67
Mix 66,"100% 1L, w/b=0.3",Mortar,0,666.67,666.67,0,0,0,0,0,0.3,200,0,5.33,11,0,0,1833,0,22,5,530.24,7112,7165,7069,7115,48,3,0,0,666.67
Mix 66,"100% 1L, w/b=0.3",Mortar,0,666.67,666.67,0,0,0,0,0,0.3,200,0,5.33,11,0,0,1833,0,22,28,530.24,7902,8337,8337,8192,251,3,0,0,666.67
Mix 67,"100% 1L, w/b=0.4",Mortar,0,666.67,666.67,0,0,0,0,0,0.4,267,0,2.67,6,0,0,1833,0,22,1,521.67,4493,4090,3535,4039,481,3,0,0,666.67
Mix 67,"100% 1L, w/b=0.4",Mortar,0,666.67,666.67,0,0,0,0,0,0.4,267,0,2.67,6,0,0,1833,0,22,3,521.67,5525,5895,5195,5538,350,3,0,0,666.67
Mix 67,"100% 1L, w/b=0.4",Mortar,0,666.67,666.67,0,0,0,0,0,0.4,267,0,2.67,6,0,0,1833,0,22,5,521.67,6343,5642,4815,5600,765,3,0,0,666.67
Mix 67,"100% 1L, w/b=0.4",Mortar,0,666.67,666.67,0,0,0,0,0,0.4,267,0,2.67,6,0,0,1833,0,22,28,521.67,6590,7570,7068,7076,490,3,0,0,666.67
Mix 68,"100% 1L, w/b=0.5",Mortar,0,666.67,666.67,0,0,0,0,0,0.5,333,0,0,0,0,0,1833,0,22,1,513.07,1453,1928,1890,1757,264,3,0,0,666.67
Mix 68,"100% 1L, w/b=0.5",Mortar,0,666.67,666.67,0,0,0,0,0,0.5,333,0,0,0,0,0,1833,0,22,3,513.07,2283,3198,3010,2830,483,3,0,0,666.67
Mix 68,"100% 1L, w/b=0.5",Mortar,0,666.67,666.67,0,0,0,0,0,0.5,333,0,0,0,0,0,1833,0,22,5,513.07,2968,4158,3913,3680,628,3,0,0,666.67
Mix 68,"100% 1L, w/b=0.5",Mortar,0,666.67,666.67,0,0,0,0,0,0.5,333,0,0,0,0,0,1833,0,22,28,513.07,6093,5795,5763,5884,182,3,0,0,666.67
,,,,,,,,,,,,,,,,,,,,,,,,,,,,,,,
,,,,,,,,,,,,,,,,,,,,,,,,,,,,,,,
,,,,,,,,,,,,,,,,,,,,,,,,,,,,,,,
,,,,,,,,,,,,,,,,,,,,,,,,,,,,,,,
,,,,,,,,,,,,,,,,,,,,,,,,,,,,,,,
,,,,,,,,,,,,,,,,,,,,,,,,,,,,,,,
,,,,,,,,,,,,,,,,,,,,,,,,,,,,,,,
,,,,,,,,,,,,,,,,,,,,,,,,,,,,,,,
,,,,,,,,,,,,,,,,,,,,,,,,,,,,,,,
,,,,,,,,,,,,,,,,,,,,,,,,,,,,,,,
,,,,,,,,,,,,,,,,,,,,,,,,,,,,,,,
,,,,,,,,,,,,,,,,,,,,,,,,,,,,,,,
,,,,,,,,,,,,,,,,,,,,,,,,,,,,,,,
,,,,,,,,,,,,,,,,,,,,,,,,,,,,,,,
,,,,,,,,,,,,,,,,,,,,,,,,,,,,,,,
,,,,,,,,,,,,,,,,,,,,,,,,,,,,,,,
,,,,,,,,,,,,,,,,,,,,,,,,,,,,,,,
,,,,,,,,,,,,,,,,,,,,,,,,,,,,,,,
,,,,,,,,,,,,,,,,,,,,,,,,,,,,,,,
,,,,,,,,,,,,,,,,,,,,,,,,,,,,,,,
,,,,,,,,,,,,,,,,,,,,,,,,,,,,,,,
,,,,,,,,,,,,,,,,,,,,,,,,,,,,,,,
,,,,,,,,,,,,,,,,,,,,,,,,,,,,,,,
,,,,,,,,,,,,,,,,,,,,,,,,,,,,,,,
,,,,,,,,,,,,,,,,,,,,,,,,,,,,,,,
,,,,,,,,,,,,,,,,,,,,,,,,,,,,,,,
,,,,,,,,,,,,,,,,,,,,,,,,,,,,,,,
,,,,,,,,,,,,,,,,,,,,,,,,,,,,,,,
,,,,,,,,,,,,,,,,,,,,,,,,,,,,,,,
,,,,,,,,,,,,,,,,,,,,,,,,,,,,,,,
,,,,,,,,,,,,,,,,,,,,,,,,,,,,,,,
,,,,,,,,,,,,,,,,,,,,,,,,,,,,,,,
,,,,,,,,,,,,,,,,,,,,,,,,,,,,,,,
,,,,,,,,,,,,,,,,,,,,,,,,,,,,,,,
,,,,,,,,,,,,,,,,,,,,,,,,,,,,,,,
,,,,,,,,,,,,,,,,,,,,,,,,,,,,,,,
,,,,,,,,,,,,,,,,,,,,,,,,,,,,,,,
,,,,,,,,,,,,,,,,,,,,,,,,,,,,,,,
,,,,,,,,,,,,,,,,,,,,,,,,,,,,,,,
,,,,,,,,,,,,,,,,,,,,,,,,,,,,,,,
,,,,,,,,,,,,,,,,,,,,,,,,,,,,,,,
,,,,,,,,,,,,,,,,,,,,,,,,,,,,,,,
,,,,,,,,,,,,,,,,,,,,,,,,,,,,,,,
,,,,,,,,,,,,,,,,,,,,,,,,,,,,,,,
,,,,,,,,,,,,,,,,,,,,,,,,,,,,,,,
,,,,,,,,,,,,,,,,,,,,,,,,,,,,,,,
,,,,,,,,,,,,,,,,,,,,,,,,,,,,,,,
,,,,,,,,,,,,,,,,,,,,,,,,,,,,,,,
,,,,,,,,,,,,,,,,,,,,,,,,,,,,,,,
,,,,,,,,,,,,,,,,,,,,,,,,,,,,,,,
,,,,,,,,,,,,,,,,,,,,,,,,,,,,,,,
,,,,,,,,,,,,,,,,,,,,,,,,,,,,,,,
,,,,,,,,,,,,,,,,,,,,,,,,,,,,,,,
,,,,,,,,,,,,,,,,,,,,,,,,,,,,,,,
,,,,,,,,,,,,,,,,,,,,,,,,,,,,,,,
,,,,,,,,,,,,,,,,,,,,,,,,,,,,,,,
,,,,,,,,,,,,,,,,,,,,,,,,,,,,,,,
,,,,,,,,,,,,,,,,,,,,,,,,,,,,,,,
,,,,,,,,,,,,,,,,,,,,,,,,,,,,,,,
,,,,,,,,,,,,,,,,,,,,,,,,,,,,,,,
,,,,,,,,,,,,,,,,,,,,,,,,,,,,,,,
,,,,,,,,,,,,,,,,,,,,,,,,,,,,,,,
,,,,,,,,,,,,,,,,,,,,,,,,,,,,,,,
,,,,,,,,,,,,,,,,,,,,,,,,,,,,,,,
,,,,,,,,,,,,,,,,,,,,,,,,,,,,,,,
,,,,,,,,,,,,,,,,,,,,,,,,,,,,,,,
,,,,,,,,,,,,,,,,,,,,,,,,,,,,,,,
,,,,,,,,,,,,,,,,,,,,,,,,,,,,,,,
,,,,,,,,,,,,,,,,,,,,,,,,,,,,,,,
,,,,,,,,,,,,,,,,,,,,,,,,,,,,,,,
,,,,,,,,,,,,,,,,,,,,,,,,,,,,,,,
,,,,,,,,,,,,,,,,,,,,,,,,,,,,,,,
,,,,,,,,,,,,,,,,,,,,,,,,,,,,,,,
,,,,,,,,,,,,,,,,,,,,,,,,,,,,,,,
,,,,,,,,,,,,,,,,,,,,,,,,,,,,,,,
,,,,,,,,,,,,,,,,,,,,,,,,,,,,,,,
,,,,,,,,,,,,,,,,,,,,,,,,,,,,,,,
,,,,,,,,,,,,,,,,,,,,,,,,,,,,,,,
,,,,,,,,,,,,,,,,,,,,,,,,,,,,,,,
,,,,,,,,,,,,,,,,,,,,,,,,,,,,,,,
,,,,,,,,,,,,,,,,,,,,,,,,,,,,,,,
,,,,,,,,,,,,,,,,,,,,,,,,,,,,,,,
,,,,,,,,,,,,,,,,,,,,,,,,,,,,,,,
,,,,,,,,,,,,,,,,,,,,,,,,,,,,,,,
,,,,,,,,,,,,,,,,,,,,,,,,,,,,,,,
,,,,,,,,,,,,,,,,,,,,,,,,,,,,,,,
,,,,,,,,,,,,,,,,,,,,,,,,,,,,,,,
,,,,,,,,,,,,,,,,,,,,,,,,,,,,,,,
,,,,,,,,,,,,,,,,,,,,,,,,,,,,,,,
,,,,,,,,,,,,,,,,,,,,,,,,,,,,,,,
,,,,,,,,,,,,,,,,,,,,,,,,,,,,,,,
,,,,,,,,,,,,,,,,,,,,,,,,,,,,,,,
,,,,,,,,,,,,,,,,,,,,,,,,,,,,,,,
,,,,,,,,,,,,,,,,,,,,,,,,,,,,,,,
,,,,,,,,,,,,,,,,,,,,,,,,,,,,,,,
,,,,,,,,,,,,,,,,,,,,,,,,,,,,,,,
,,,,,,,,,,,,,,,,,,,,,,,,,,,,,,,
,,,,,,,,,,,,,,,,,,,,,,,,,,,,,,,
,,,,,,,,,,,,,,,,,,,,,,,,,,,,,,,
,,,,,,,,,,,,,,,,,,,,,,,,,,,,,,,
,,,,,,,,,,,,,,,,,,,,,,,,,,,,,,,
,,,,,,,,,,,,,,,,,,,,,,,,,,,,,,,
,,,,,,,,,,,,,,,,,,,,,,,,,,,,,,,
,,,,,,,,,,,,,,,,,,,,,,,,,,,,,,,
,,,,,,,,,,,,,,,,,,,,,,,,,,,,,,,
,,,,,,,,,,,,,,,,,,,,,,,,,,,,,,,
,,,,,,,,,,,,,,,,,,,,,,,,,,,,,,,
,,,,,,,,,,,,,,,,,,,,,,,,,,,,,,,
,,,,,,,,,,,,,,,,,,,,,,,,,,,,,,,
,,,,,,,,,,,,,,,,,,,,,,,,,,,,,,,
,,,,,,,,,,,,,,,,,,,,,,,,,,,,,,,
,,,,,,,,,,,,,,,,,,,,,,,,,,,,,,,
,,,,,,,,,,,,,,,,,,,,,,,,,,,,,,,
,,,,,,,,,,,,,,,,,,,,,,,,,,,,,,,
,,,,,,,,,,,,,,,,,,,,,,,,,,,,,,,
,,,,,,,,,,,,,,,,,,,,,,,,,,,,,,,
,,,,,,,,,,,,,,,,,,,,,,,,,,,,,,,
,,,,,,,,,,,,,,,,,,,,,,,,,,,,,,,
,,,,,,,,,,,,,,,,,,,,,,,,,,,,,,,
,,,,,,,,,,,,,,,,,,,,,,,,,,,,,,,
,,,,,,,,,,,,,,,,,,,,,,,,,,,,,,,
,,,,,,,,,,,,,,,,,,,,,,,,,,,,,,,
,,,,,,,,,,,,,,,,,,,,,,,,,,,,,,,
,,,,,,,,,,,,,,,,,,,,,,,,,,,,,,,
,,,,,,,,,,,,,,,,,,,,,,,,,,,,,,,
,,,,,,,,,,,,,,,,,,,,,,,,,,,,,,,
,,,,,,,,,,,,,,,,,,,,,,,,,,,,,,,
,,,,,,,,,,,,,,,,,,,,,,,,,,,,,,,
,,,,,,,,,,,,,,,,,,,,,,,,,,,,,,,
,,,,,,,,,,,,,,,,,,,,,,,,,,,,,,,
,,,,,,,,,,,,,,,,,,,,,,,,,,,,,,,
,,,,,,,,,,,,,,,,,,,,,,,,,,,,,,,
,,,,,,,,,,,,,,,,,,,,,,,,,,,,,,,
,,,,,,,,,,,,,,,,,,,,,,,,,,,,,,,
,,,,,,,,,,,,,,,,,,,,,,,,,,,,,,,
,,,,,,,,,,,,,,,,,,,,,,,,,,,,,,,
,,,,,,,,,,,,,,,,,,,,,,,,,,,,,,,
,,,,,,,,,,,,,,,,,,,,,,,,,,,,,,,
,,,,,,,,,,,,,,,,,,,,,,,,,,,,,,,
,,,,,,,,,,,,,,,,,,,,,,,,,,,,,,,
,,,,,,,,,,,,,,,,,,,,,,,,,,,,,,,
,,,,,,,,,,,,,,,,,,,,,,,,,,,,,,,
,,,,,,,,,,,,,,,,,,,,,,,,,,,,,,,
,,,,,,,,,,,,,,,,,,,,,,,,,,,,,,,
,,,,,,,,,,,,,,,,,,,,,,,,,,,,,,,
,,,,,,,,,,,,,,,,,,,,,,,,,,,,,,,
,,,,,,,,,,,,,,,,,,,,,,,,,,,,,,,
,,,,,,,,,,,,,,,,,,,,,,,,,,,,,,,
,,,,,,,,,,,,,,,,,,,,,,,,,,,,,,,
,,,,,,,,,,,,,,,,,,,,,,,,,,,,,,,
,,,,,,,,,,,,,,,,,,,,,,,,,,,,,,,
,,,,,,,,,,,,,,,,,,,,,,,,,,,,,,,
,,,,,,,,,,,,,,,,,,,,,,,,,,,,,,,
,,,,,,,,,,,,,,,,,,,,,,,,,,,,,,,
,,,,,,,,,,,,,,,,,,,,,,,,,,,,,,,
,,,,,,,,,,,,,,,,,,,,,,,,,,,,,,,
,,,,,,,,,,,,,,,,,,,,,,,,,,,,,,,
,,,,,,,,,,,,,,,,,,,,,,,,,,,,,,,
,,,,,,,,,,,,,,,,,,,,,,,,,,,,,,,
,,,,,,,,,,,,,,,,,,,,,,,,,,,,,,,
,,,,,,,,,,,,,,,,,,,,,,,,,,,,,,,
,,,,,,,,,,,,,,,,,,,,,,,,,,,,,,,
,,,,,,,,,,,,,,,,,,,,,,,,,,,,,,,
,,,,,,,,,,,,,,,,,,,,,,,,,,,,,,,
,,,,,,,,,,,,,,,,,,,,,,,,,,,,,,,
,,,,,,,,,,,,,,,,,,,,,,,,,,,,,,,
,,,,,,,,,,,,,,,,,,,,,,,,,,,,,,,
,,,,,,,,,,,,,,,,,,,,,,,,,,,,,,,
,,,,,,,,,,,,,,,,,,,,,,,,,,,,,,,
,,,,,,,,,,,,,,,,,,,,,,,,,,,,,,,
,,,,,,,,,,,,,,,,,,,,,,,,,,,,,,,
,,,,,,,,,,,,,,,,,,,,,,,,,,,,,,,
,,,,,,,,,,,,,,,,,,,,,,,,,,,,,,,
,,,,,,,,,,,,,,,,,,,,,,,,,,,,,,,
,,,,,,,,,,,,,,,,,,,,,,,,,,,,,,,
,,,,,,,,,,,,,,,,,,,,,,,,,,,,,,,
,,,,,,,,,,,,,,,,,,,,,,,,,,,,,,,
,,,,,,,,,,,,,,,,,,,,,,,,,,,,,,,
,,,,,,,,,,,,,,,,,,,,,,,,,,,,,,,
,,,,,,,,,,,,,,,,,,,,,,,,,,,,,,,
,,,,,,,,,,,,,,,,,,,,,,,,,,,,,,,
,,,,,,,,,,,,,,,,,,,,,,,,,,,,,,,
,,,,,,,,,,,,,,,,,,,,,,,,,,,,,,,
,,,,,,,,,,,,,,,,,,,,,,,,,,,,,,,
,,,,,,,,,,,,,,,,,,,,,,,,,,,,,,,
,,,,,,,,,,,,,,,,,,,,,,,,,,,,,,,
,,,,,,,,,,,,,,,,,,,,,,,,,,,,,,,
,,,,,,,,,,,,,,,,,,,,,,,,,,,,,,,
,,,,,,,,,,,,,,,,,,,,,,,,,,,,,,,
,,,,,,,,,,,,,,,,,,,,,,,,,,,,,,,
,,,,,,,,,,,,,,,,,,,,,,,,,,,,,,,
,,,,,,,,,,,,,,,,,,,,,,,,,,,,,,,
,,,,,,,,,,,,,,,,,,,,,,,,,,,,,,,
,,,,,,,,,,,,,,,,,,,,,,,,,,,,,,,
,,,,,,,,,,,,,,,,,,,,,,,,,,,,,,,
,,,,,,,,,,,,,,,,,,,,,,,,,,,,,,,
,,,,,,,,,,,,,,,,,,,,,,,,,,,,,,,
,,,,,,,,,,,,,,,,,,,,,,,,,,,,,,,
,,,,,,,,,,,,,,,,,,,,,,,,,,,,,,,
,,,,,,,,,,,,,,,,,,,,,,,,,,,,,,,
,,,,,,,,,,,,,,,,,,,,,,,,,,,,,,,
,,,,,,,,,,,,,,,,,,,,,,,,,,,,,,,
,,,,,,,,,,,,,,,,,,,,,,,,,,,,,,,
,,,,,,,,,,,,,,,,,,,,,,,,,,,,,,,
,,,,,,,,,,,,,,,,,,,,,,,,,,,,,,,
,,,,,,,,,,,,,,,,,,,,,,,,,,,,,,,
,,,,,,,,,,,,,,,,,,,,,,,,,,,,,,,
,,,,,,,,,,,,,,,,,,,,,,,,,,,,,,,
,,,,,,,,,,,,,,,,,,,,,,,,,,,,,,,
,,,,,,,,,,,,,,,,,,,,,,,,,,,,,,,
,,,,,,,,,,,,,,,,,,,,,,,,,,,,,,,
,,,,,,,,,,,,,,,,,,,,,,,,,,,,,,,
,,,,,,,,,,,,,,,,,,,,,,,,,,,,,,,
,,,,,,,,,,,,,,,,,,,,,,,,,,,,,,,
,,,,,,,,,,,,,,,,,,,,,,,,,,,,,,,
,,,,,,,,,,,,,,,,,,,,,,,,,,,,,,,
,,,,,,,,,,,,,,,,,,,,,,,,,,,,,,,
,,,,,,,,,,,,,,,,,,,,,,,,,,,,,,,
,,,,,,,,,,,,,,,,,,,,,,,,,,,,,,,
,,,,,,,,,,,,,,,,,,,,,,,,,,,,,,,
,,,,,,,,,,,,,,,,,,,,,,,,,,,,,,,
,,,,,,,,,,,,,,,,,,,,,,,,,,,,,,,
,,,,,,,,,,,,,,,,,,,,,,,,,,,,,,,
,,,,,,,,,,,,,,,,,,,,,,,,,,,,,,,
,,,,,,,,,,,,,,,,,,,,,,,,,,,,,,,
,,,,,,,,,,,,,,,,,,,,,,,,,,,,,,,
,,,,,,,,,,,,,,,,,,,,,,,,,,,,,,,
,,,,,,,,,,,,,,,,,,,,,,,,,,,,,,,
,,,,,,,,,,,,,,,,,,,,,,,,,,,,,,,
,,,,,,,,,,,,,,,,,,,,,,,,,,,,,,,
,,,,,,,,,,,,,,,,,,,,,,,,,,,,,,,
,,,,,,,,,,,,,,,,,,,,,,,,,,,,,,,
,,,,,,,,,,,,,,,,,,,,,,,,,,,,,,,
,,,,,,,,,,,,,,,,,,,,,,,,,,,,,,,
,,,,,,,,,,,,,,,,,,,,,,,,,,,,,,,
,,,,,,,,,,,,,,,,,,,,,,,,,,,,,,,
,,,,,,,,,,,,,,,,,,,,,,,,,,,,,,,
,,,,,,,,,,,,,,,,,,,,,,,,,,,,,,,
,,,,,,,,,,,,,,,,,,,,,,,,,,,,,,,
,,,,,,,,,,,,,,,,,,,,,,,,,,,,,,,
,,,,,,,,,,,,,,,,,,,,,,,,,,,,,,,
,,,,,,,,,,,,,,,,,,,,,,,,,,,,,,,
,,,,,,,,,,,,,,,,,,,,,,,,,,,,,,,
,,,,,,,,,,,,,,,,,,,,,,,,,,,,,,,
,,,,,,,,,,,,,,,,,,,,,,,,,,,,,,,
,,,,,,,,,,,,,,,,,,,,,,,,,,,,,,,
,,,,,,,,,,,,,,,,,,,,,,,,,,,,,,,
,,,,,,,,,,,,,,,,,,,,,,,,,,,,,,,
,,,,,,,,,,,,,,,,,,,,,,,,,,,,,,,
,,,,,,,,,,,,,,,,,,,,,,,,,,,,,,,
,,,,,,,,,,,,,,,,,,,,,,,,,,,,,,,
,,,,,,,,,,,,,,,,,,,,,,,,,,,,,,,
,,,,,,,,,,,,,,,,,,,,,,,,,,,,,,,
,,,,,,,,,,,,,,,,,,,,,,,,,,,,,,,
,,,,,,,,,,,,,,,,,,,,,,,,,,,,,,,
,,,,,,,,,,,,,,,,,,,,,,,,,,,,,,,
,,,,,,,,,,,,,,,,,,,,,,,,,,,,,,,
,,,,,,,,,,,,,,,,,,,,,,,,,,,,,,,
,,,,,,,,,,,,,,,,,,,,,,,,,,,,,,,
,,,,,,,,,,,,,,,,,,,,,,,,,,,,,,,
,,,,,,,,,,,,,,,,,,,,,,,,,,,,,,,
,,,,,,,,,,,,,,,,,,,,,,,,,,,,,,,
,,,,,,,,,,,,,,,,,,,,,,,,,,,,,,,
,,,,,,,,,,,,,,,,,,,,,,,,,,,,,,,
,,,,,,,,,,,,,,,,,,,,,,,,,,,,,,,
,,,,,,,,,,,,,,,,,,,,,,,,,,,,,,,
,,,,,,,,,,,,,,,,,,,,,,,,,,,,,,,
,,,,,,,,,,,,,,,,,,,,,,,,,,,,,,,
,,,,,,,,,,,,,,,,,,,,,,,,,,,,,,,
,,,,,,,,,,,,,,,,,,,,,,,,,,,,,,,
,,,,,,,,,,,,,,,,,,,,,,,,,,,,,,,
,,,,,,,,,,,,,,,,,,,,,,,,,,,,,,,
,,,,,,,,,,,,,,,,,,,,,,,,,,,,,,,
,,,,,,,,,,,,,,,,,,,,,,,,,,,,,,,
,,,,,,,,,,,,,,,,,,,,,,,,,,,,,,,
,,,,,,,,,,,,,,,,,,,,,,,,,,,,,,,
,,,,,,,,,,,,,,,,,,,,,,,,,,,,,,,
,,,,,,,,,,,,,,,,,,,,,,,,,,,,,,,
,,,,,,,,,,,,,,,,,,,,,,,,,,,,,,,
,,,,,,,,,,,,,,,,,,,,,,,,,,,,,,,
,,,,,,,,,,,,,,,,,,,,,,,,,,,,,,,
,,,,,,,,,,,,,,,,,,,,,,,,,,,,,,,
,,,,,,,,,,,,,,,,,,,,,,,,,,,,,,,
,,,,,,,,,,,,,,,,,,,,,,,,,,,,,,,
,,,,,,,,,,,,,,,,,,,,,,,,,,,,,,,
,,,,,,,,,,,,,,,,,,,,,,,,,,,,,,,
,,,,,,,,,,,,,,,,,,,,,,,,,,,,,,,
,,,,,,,,,,,,,,,,,,,,,,,,,,,,,,,
,,,,,,,,,,,,,,,,,,,,,,,,,,,,,,,
,,,,,,,,,,,,,,,,,,,,,,,,,,,,,,,
,,,,,,,,,,,,,,,,,,,,,,,,,,,,,,,
,,,,,,,,,,,,,,,,,,,,,,,,,,,,,,,
,,,,,,,,,,,,,,,,,,,,,,,,,,,,,,,
,,,,,,,,,,,,,,,,,,,,,,,,,,,,,,,
,,,,,,,,,,,,,,,,,,,,,,,,,,,,,,,
,,,,,,,,,,,,,,,,,,,,,,,,,,,,,,,
,,,,,,,,,,,,,,,,,,,,,,,,,,,,,,,
,,,,,,,,,,,,,,,,,,,,,,,,,,,,,,,
,,,,,,,,,,,,,,,,,,,,,,,,,,,,,,,
,,,,,,,,,,,,,,,,,,,,,,,,,,,,,,,
,,,,,,,,,,,,,,,,,,,,,,,,,,,,,,,
,,,,,,,,,,,,,,,,,,,,,,,,,,,,,,,
,,,,,,,,,,,,,,,,,,,,,,,,,,,,,,,
,,,,,,,,,,,,,,,,,,,,,,,,,,,,,,,
,,,,,,,,,,,,,,,,,,,,,,,,,,,,,,,
,,,,,,,,,,,,,,,,,,,,,,,,,,,,,,,
,,,,,,,,,,,,,,,,,,,,,,,,,,,,,,,
,,,,,,,,,,,,,,,,,,,,,,,,,,,,,,,
,,,,,,,,,,,,,,,,,,,,,,,,,,,,,,,
,,,,,,,,,,,,,,,,,,,,,,,,,,,,,,,
,,,,,,,,,,,,,,,,,,,,,,,,,,,,,,,
,,,,,,,,,,,,,,,,,,,,,,,,,,,,,,,
,,,,,,,,,,,,,,,,,,,,,,,,,,,,,,,
,,,,,,,,,,,,,,,,,,,,,,,,,,,,,,,
,,,,,,,,,,,,,,,,,,,,,,,,,,,,,,,
,,,,,,,,,,,,,,,,,,,,,,,,,,,,,,,
,,,,,,,,,,,,,,,,,,,,,,,,,,,,,,,
,,,,,,,,,,,,,,,,,,,,,,,,,,,,,,,
,,,,,,,,,,,,,,,,,,,,,,,,,,,,,,,
,,,,,,,,,,,,,,,,,,,,,,,,,,,,,,,